{
    "resourceType": "Bundle",
    "type": "transaction",
    "timestamp": "2025-06-19T00:04:29.1329864+10:00",
    "entry": [
        {
            "fullUrl": "urn:uuid:450599cb-d9f7-480b-bfed-a6a63f52a279",
            "resource": {
                "resourceType": "Organization",
                "meta": {
                    "profile": [
                        "http://hl7.org.au/fhir/core/StructureDefinition/au-core-organization"
                    ]
                },
                "identifier": [
                    {   
                        "type": {
                            "coding": [
                                {
                                    "system": "http://terminology.hl7.org.au/CodeSystem/v2-0203",
                                    "code": "NOI"
                                }
                            ],
                            "text": "HPI-O"
                        },
                        "system": "http://ns.electronichealth.net.au/id/hi/hpio/1.0",
                        "value": "8003624166708567"
                    }
                ],
                "active": true,
                "name": "Sullivan Nicolaides Pathology"
            },
            "request": {
                "method": "POST",
                "url": "Organization",
                "ifNoneExist": "identifier=http://ns.electronichealth.net.au/id/hi/hpio/1.0|8003624166708567"
            }
        },
        {
            "fullUrl": "urn:uuid:2643164e-4e10-45b9-8721-b7b10ea6abad",
            "resource": {
                "resourceType": "Patient",
                "meta": {
                    "profile": [
                        "http://hl7.org.au/fhir/core/StructureDefinition/au-core-patient"
                    ]
                },
                "extension": [
                    {
                        "url": "http://hl7.org.au/fhir/StructureDefinition/indigenous-status",
                        "valueCoding": {
                            "system": "https://healthterminologies.gov.au/fhir/CodeSystem/australian-indigenous-status-1",
                            "code": "1",
                            "display": "Aboriginal but not Torres Strait Islander origin"
                        }
                    },
                    {
                        "extension": [
                            {
                                "url": "value",
                                "valueCodeableConcept": {
                                    "coding": [
                                        {
                                            "system": "http://snomed.info/sct",
                                            "code": "446141000124107",
                                            "display": "Identifies as female gender"
                                        }
                                    ]
                                }
                            }
                        ],
                        "url": "http://hl7.org/fhir/StructureDefinition/individual-genderIdentity"
                    },
                    {
                        "extension": [
                            {
                                "url": "value",
                                "valueCodeableConcept": {
                                    "coding": [
                                        {
                                            "system": "http://loinc.org",
                                            "code": "LA29519-8",
                                            "display": "she/her/her/hers/herself"
                                        }
                                    ]
                                }
                            }
                        ],
                        "url": "http://hl7.org/fhir/StructureDefinition/individual-pronouns"
                    },
                    {
                        "extension": [
                            {
                                "url": "type",
                                "valueCodeableConcept": {
                                    "coding": [
                                        {
                                            "system": "http://snomed.info/sct",
                                            "code": "1515311000168102",
                                            "display": "Biological sex at birth"
                                        }
                                    ]
                                }
                            },
                            {
                                "url": "value",
                                "valueCodeableConcept": {
                                    "coding": [
                                        {
                                            "system": "http://snomed.info/sct",
                                            "code": "248152002",
                                            "display": "Female"
                                        }
                                    ]
                                }
                            }
                        ],
                        "url": "http://hl7.org/fhir/StructureDefinition/individual-recordedSexOrGender"
                    }
                ],
                "identifier": [
                    {
                        "extension": [
                            {
                                "url": "http://hl7.org.au/fhir/StructureDefinition/ihi-status",
                                "valueCoding": {
                                    "system": "https://healthterminologies.gov.au/fhir/CodeSystem/ihi-status-1",
                                    "code": "active"
                                }
                            },
                            {
                                "url": "http://hl7.org.au/fhir/StructureDefinition/ihi-record-status",
                                "valueCoding": {
                                    "system": "https://healthterminologies.gov.au/fhir/CodeSystem/ihi-record-status-1",
                                    "code": "verified",
                                    "display": "verified"
                                }
                            }
                        ],
                        "type": {
                            "coding": [
                                {
                                    "system": "http://terminology.hl7.org/CodeSystem/v2-0203",
                                    "code": "NI"
                                }
                            ],
                            "text": "IHI"
                        },
                        "system": "http://ns.electronichealth.net.au/id/hi/ihi/1.0",
                        "value": "8003608000311662"
                    },
                    {
                        "type": {
                            "coding": [
                                {
                                    "system": "http://terminology.hl7.org/CodeSystem/v2-0203",
                                    "code": "MC"
                                }
                            ],
                            "text": "Medicare Number"
                        },
                        "system": "http://ns.electronichealth.net.au/id/medicare-number",
                        "value": "69518252411"
                    }
                ],
                "name": [
                    {
                        "use": "official",
                        "family": "BARATZ",
                        "given": [
                            "Toni"
                        ]
                    }
                ],
                "telecom": [
                    {
                        "system": "phone",
                        "value": "0870101270",
                        "use": "home"
                    },
                    {
                        "system": "phone",
                        "value": "0491570156",
                        "use": "mobile"
                    },
                    {
                        "system": "phone",
                        "value": "0870108006",
                        "use": "work"
                    }
                ],
                "gender": "female",
                "birthDate": "1978-06-16",
                "address": [
                    {
                        "line": [
                            "24 Law Cir"
                        ],
                        "city": "Bassendean",
                        "state": "WA",
                        "postalCode": "6054",
                        "country": "AU"
                    }
                ]
            },
            "request": {
                "method": "POST",
                "url": "Patient"
            }
        },
        {
            "fullUrl": "urn:uuid:421ebf88-ca9d-4434-80ef-8b4575894f33",
            "resource": {
                "resourceType": "ServiceRequest",
                "meta": {
                    "profile": [
                        "http://hl7.org.au/fhir/ereq/StructureDefinition/au-erequesting-servicerequest-path"
                    ]
                },
                "contained": [
                    {
                        "resourceType": "Coverage",
                        "id": "coverage",
                        "status": "active",
                        "type": {
                            "coding": [
                                {
                                    "system": "http://terminology.hl7.org/CodeSystem/v3-ActCode",
                                    "code": "PUBLICPOL",
                                    "display": "Bulk Billed"
                                }
                            ],
                            "text": "Bulk Billed"
                        },
                        "beneficiary": {
                            "reference": "urn:uuid:2643164e-4e10-45b9-8721-b7b10ea6abad",
                            "display": "BARATZ Toni"
                        },
                        "payor": [
                            {
                                "type": "Organization",
                                "display": "Medicare Australia"
                            }
                        ]
                    },
                    {
                        "resourceType": "Encounter",
                        "meta": {
                            "profile": [
                                "http://hl7.org.au/fhir/core/StructureDefinition/au-core-encounter"
                            ]
                        },
                        "id": "encounter",
                        "status": "finished",
                        "class": {
                            "system": "http://terminology.hl7.org/CodeSystem/v3-ActCode",
                            "code": "AMB",
                            "display": "ambulatory"
                        },
                        "subject": {
                            "reference": "urn:uuid:2643164e-4e10-45b9-8721-b7b10ea6abad",
                            "display": "BARATZ Toni"
                        }
                    }
                ],
                "extension": [
                    {
                        "url": "http://hl7.org.au/fhir/ereq/StructureDefinition/au-erequesting-displaysequence",
                        "valueInteger": 1
                    }
                ],
                "identifier": [
                    {
                        "type": {
                            "coding": [
                                {
                                    "system": "http://terminology.hl7.org/CodeSystem/v2-0203",
                                    "code": "PLAC"
                                }
                            ],
                            "text": "Placer Identifier"
                        },
                        "system": "https://diagnostic-orders-are-us.com.au/ids/{{MinorCustomerId}}/plac",
                        "value": "{{PlacerOrderNumber1}}"
                    }
                ],
                "requisition": {
                    "type": {
                        "coding": [
                            {
                                "system": "http://terminology.hl7.org/CodeSystem/v2-0203",
                                "code": "PGN"
                            }
                        ],
                        "text": "Placer Group Number"
                    },
                    "system": "http://diagnostic-orders-are-us.com.au/ids/pgn",
                    "value": "{{BarcodeIdentifier}}"
                },
                "status": "active",
                "intent": "order",
                "category": [
                    {
                        "coding": [
                            {
                                "system": "http://snomed.info/sct",
                                "code": "108252007"
                            }
                        ],
                        "text": "Laboratory procedure"
                    }
                ],
                "code": {
                    "coding": [
                        {
                            "system": "http://snomed.info/sct",
                            "code": "26604007",
                            "display": "Complete blood count"
                        }
                    ],
                    "text": "Complete blood count"
                },
                "subject": {
                    "reference": "urn:uuid:2643164e-4e10-45b9-8721-b7b10ea6abad",
                    "display": "BARATZ Toni"
                },
                "encounter": {
                    "reference": "#encounter",
                    "type": "Encounter"
                },
                "authoredOn": "{{DateTimeNow}}",
                "requester": {
                    "reference": "urn:uuid:0192524c-b47b-7245-bead-dbc6e009ea1c"
                },
                "performerType": {
                    "coding": [
                        {
                            "system": "http://terminology.hl7.org/CodeSystem/v2-0074",
                            "code": "LAB"
                        }
                    ],
                    "text": "Laboratory"
                },
                "performer": [
                    {
                        "reference": "urn:uuid:0192524f-98a0-7b8f-b00c-218e781fb945"
                    }
                ],
                "insurance": [
                    {
                        "reference": "#coverage",
                        "type": "Coverage"
                    }
                ],
                "note": [
                    {
                        "text": "Feels very sick\nLine two\nLine three"
                    }
                ],
                "patientInstruction": "This is a instruction to the patient.\nLine two\nLine three."
            },
            "request": {
                "method": "POST",
                "url": "ServiceRequest"
            }
        },
        {
            "fullUrl": "urn:uuid:56340aeb-4e96-4ffa-bb15-b4fa42486fc4",
            "resource": {
                "resourceType": "ServiceRequest",
                "meta": {
                    "profile": [
                        "http://hl7.org.au/fhir/ereq/StructureDefinition/au-erequesting-servicerequest-path"
                    ]
                },
                "contained": [
                    {
                        "resourceType": "Coverage",
                        "id": "coverage",
                        "status": "active",
                        "type": {
                            "coding": [
                                {
                                    "system": "http://terminology.hl7.org/CodeSystem/v3-ActCode",
                                    "code": "PUBLICPOL",
                                    "display": "Bulk Billed"
                                }
                            ],
                            "text": "Bulk Billed"
                        },
                        "beneficiary": {
                            "reference": "urn:uuid:2643164e-4e10-45b9-8721-b7b10ea6abad",
                            "display": "BARATZ Toni"
                        },
                        "payor": [
                            {
                                "type": "Organization",
                                "display": "Medicare Australia"
                            }
                        ]
                    },
                    {
                        "resourceType": "Encounter",
                        "meta": {
                            "profile": [
                                "http://hl7.org.au/fhir/core/StructureDefinition/au-core-encounter"
                            ]
                        },
                        "id": "encounter",
                        "status": "finished",
                        "class": {
                            "system": "http://terminology.hl7.org/CodeSystem/v3-ActCode",
                            "code": "AMB",
                            "display": "ambulatory"
                        },
                        "subject": {
                            "reference": "urn:uuid:2643164e-4e10-45b9-8721-b7b10ea6abad",
                            "display": "BARATZ Toni"
                        }
                    }
                ],
                "extension": [
                    {
                        "url": "http://hl7.org.au/fhir/ereq/StructureDefinition/au-erequesting-displaysequence",
                        "valueInteger": 2
                    }
                ],
                "identifier": [
                    {
                        "type": {
                            "coding": [
                                {
                                    "system": "http://terminology.hl7.org/CodeSystem/v2-0203",
                                    "code": "PLAC"
                                }
                            ],
                            "text": "Placer Identifier"
                        },
                        "system": "https://diagnostic-orders-are-us.com.au/ids/{{MinorCustomerId}}/plac",
                        "value": "{{PlacerOrderNumber2}}"
                    }
                ],
                "requisition": {
                    "type": {
                        "coding": [
                            {
                                "system": "http://terminology.hl7.org/CodeSystem/v2-0203",
                                "code": "PGN"
                            }
                        ],
                        "text": "Placer Group Number"
                    },
                    "system": "http://diagnostic-orders-are-us.com.au/ids/pgn",
                    "value": "{{BarcodeIdentifier}}"
                },
                "status": "active",
                "intent": "order",
                "category": [
                    {
                        "coding": [
                            {
                                "system": "http://snomed.info/sct",
                                "code": "108252007"
                            }
                        ],
                        "text": "Laboratory procedure"
                    }
                ],
                "priority": "stat",
                "code": {
                    "coding": [
                        {
                            "system": "http://snomed.info/sct",
                            "code": "269831005",
                            "display": "Infectious Mononucleosis test"
                        }
                    ],
                    "text": "Infectious Mononucleosis test"
                },
                "subject": {
                    "reference": "urn:uuid:2643164e-4e10-45b9-8721-b7b10ea6abad",
                    "display": "BARATZ Toni"
                },
                "encounter": {
                    "reference": "#encounter",
                    "type": "Encounter"
                },
                "authoredOn": "{{DateTimeNow}}",
                "requester": {
                    "reference": "urn:uuid:0192524c-b47b-7245-bead-dbc6e009ea1c"
                },
                "performerType": {
                    "coding": [
                        {
                            "system": "http://terminology.hl7.org/CodeSystem/v2-0074",
                            "code": "LAB"
                        }
                    ],
                    "text": "Laboratory"
                },
                "performer": [
                    {
                        "reference": "urn:uuid:0192524f-98a0-7b8f-b00c-218e781fb945"
                    }
                ],
                "insurance": [
                    {
                        "reference": "#coverage",
                        "type": "Coverage"
                    }
                ],
                "note": [
                    {
                        "text": "Feels very sick\nLine two\nLine three"
                    }
                ],
                "patientInstruction": "This is a instruction to the patient.\nLine two\nLine three."
            },
            "request": {
                "method": "POST",
                "url": "ServiceRequest"
            }
        },
        {
            "fullUrl": "urn:uuid:1729dde7-fc68-4a30-be94-db3cf3c19ba5",
            "resource": {
                "resourceType": "ServiceRequest",
                "meta": {
                    "profile": [
                        "http://hl7.org.au/fhir/ereq/StructureDefinition/au-erequesting-servicerequest-path"
                    ]
                },
                "contained": [
                    {
                        "resourceType": "Coverage",
                        "id": "coverage",
                        "status": "active",
                        "type": {
                            "coding": [
                                {
                                    "system": "http://terminology.hl7.org/CodeSystem/v3-ActCode",
                                    "code": "PUBLICPOL",
                                    "display": "Bulk Billed"
                                }
                            ],
                            "text": "Bulk Billed"
                        },
                        "beneficiary": {
                            "reference": "urn:uuid:2643164e-4e10-45b9-8721-b7b10ea6abad",
                            "display": "BARATZ Toni"
                        },
                        "payor": [
                            {
                                "type": "Organization",
                                "display": "Medicare Australia"
                            }
                        ]
                    },
                    {
                        "resourceType": "Encounter",
                        "meta": {
                            "profile": [
                                "http://hl7.org.au/fhir/core/StructureDefinition/au-core-encounter"
                            ]
                        },
                        "id": "encounter",
                        "status": "finished",
                        "class": {
                            "system": "http://terminology.hl7.org/CodeSystem/v3-ActCode",
                            "code": "AMB",
                            "display": "ambulatory"
                        },
                        "subject": {
                            "reference": "urn:uuid:2643164e-4e10-45b9-8721-b7b10ea6abad",
                            "display": "BARATZ Toni"
                        }
                    }
                ],
                "extension": [
                    {
                        "url": "http://hl7.org.au/fhir/ereq/StructureDefinition/au-erequesting-displaysequence",
                        "valueInteger": 3
                    }
                ],
                "identifier": [
                    {
                        "type": {
                            "coding": [
                                {
                                    "system": "http://terminology.hl7.org/CodeSystem/v2-0203",
                                    "code": "PLAC"
                                }
                            ],
                            "text": "Placer Identifier"
                        },
                        "system": "https://diagnostic-orders-are-us.com.au/ids/{{MinorCustomerId}}/plac",
                        "value": "{{PlacerOrderNumber3}}"
                    }
                ],
                "requisition": {
                    "type": {
                        "coding": [
                            {
                                "system": "http://terminology.hl7.org/CodeSystem/v2-0203",
                                "code": "PGN"
                            }
                        ],
                        "text": "Placer Group Number"
                    },
                    "system": "http://diagnostic-orders-are-us.com.au/ids/pgn",
                    "value": "{{BarcodeIdentifier}}"
                },
                "status": "active",
                "intent": "order",
                "category": [
                    {
                        "coding": [
                            {
                                "system": "http://snomed.info/sct",
                                "code": "108252007"
                            }
                        ],
                        "text": "Laboratory procedure"
                    }
                ],
                "code": {
                    "coding": [
                        {
                            "system": "http://snomed.info/sct",
                            "code": "271552009",
                            "display": "Liver function tests - general"
                        }
                    ],
                    "text": "Liver function tests - general"
                },
                "subject": {
                    "reference": "urn:uuid:2643164e-4e10-45b9-8721-b7b10ea6abad",
                    "display": "BARATZ Toni"
                },
                "encounter": {
                    "reference": "#encounter",
                    "type": "Encounter"
                },
                "authoredOn": "{{DateTimeNow}}",
                "requester": {
                    "reference": "urn:uuid:0192524c-b47b-7245-bead-dbc6e009ea1c"
                },
                "performerType": {
                    "coding": [
                        {
                            "system": "http://terminology.hl7.org/CodeSystem/v2-0074",
                            "code": "LAB"
                        }
                    ],
                    "text": "Laboratory"
                },
                "performer": [
                    {
                        "reference": "urn:uuid:0192524f-98a0-7b8f-b00c-218e781fb945"
                    }
                ],
                "insurance": [
                    {
                        "reference": "#coverage",
                        "type": "Coverage"
                    }
                ],
                "note": [
                    {
                        "text": "Feels very sick\nLine two\nLine three"
                    }
                ],
                "patientInstruction": "This is a instruction to the patient.\nLine two\nLine three."
            },
            "request": {
                "method": "POST",
                "url": "ServiceRequest"
            }
        },
        {
            "fullUrl": "urn:uuid:01925246-3c6c-733f-826b-3aaf71a39959",
            "resource": {
                "resourceType": "Organization",
                "id": "mossy-point-medical-centre",
                "meta": {
                    "profile": [
                        "http://hl7.org.au/fhir/core/StructureDefinition/au-core-organization"
                    ]
                },
                "identifier": [
                    {
                        "type": {
                            "coding": [
                                {
                                    "system": "http://terminology.hl7.org.au/CodeSystem/v2-0203",
                                    "code": "NOI"
                                }
                            ],
                            "text": "HPI-O"
                        },
                        "system": "http://ns.electronichealth.net.au/id/hi/hpio/1.0",
                        "value": "8003629900040425"
                    },
                    {
                        "type": {
                            "coding": [
                                {
                                    "system": "http://terminology.hl7.org/CodeSystem/v2-0203",
                                    "code": "XX"
                                }
                            ],
                            "text": "ABN"
                        },
                        "system": "http://hl7.org.au/id/abn",
                        "value": "81185378242"
                    }
                ],
                "type": [
                    {
                        "coding": [
                            {
                                "system": "http://www.abs.gov.au/ausstats/abs@.nsf/mf/1292.0",
                                "code": "8511",
                                "display": "General Practice"
                            },
                            {
                                "system": "http://snomed.info/sct",
                                "code": "700232004",
                                "display": "General medical service"
                            }
                        ],
                        "text": "General medical practitioner service"
                    }
                ],
                "name": "Mossy Point Medical Centre",
                "telecom": [
                    {
                        "system": "phone",
                        "value": "0255509415",
                        "use": "work"
                    },
                    {
                        "system": "email",
                        "value": "reception@mossypointmc.example.net"
                    }
                ],
                "address": [
                    {
                        "line": [
                            "192 Pheonix Jnc"
                        ],
                        "city": "Mossy Point",
                        "state": "NSW",
                        "postalCode": "2537"
                    }
                ]
            },
            "request": {
                "method": "POST",
                "url": "Organization",
                "ifNoneExist": "identifier=http://ns.electronichealth.net.au/id/hi/hpio/1.0|8003629900040425"
            }
        },
        {
            "fullUrl": "urn:uuid:01925246-147a-7391-a9a1-7ca5d40a8e7a",
            "resource": {
                "resourceType": "Location",
                "meta": {
                    "profile": [
                        "http://hl7.org.au/fhir/core/StructureDefinition/au-core-location"
                    ]
                },
                "name": "Mossy Point Medical Centre",
                "mode": "instance",
                "address": {
                    "line": [
                        "192 Pheonix Jnc"
                    ],
                    "city": "Mossy Point",
                    "state": "NSW",
                    "postalCode": "2537"
                },
                "physicalType": {
                    "coding": [
                        {
                            "system": "http://terminology.hl7.org/CodeSystem/location-physical-type",
                            "code": "si",
                            "display": "Site"
                        }
                    ]
                },
                "managingOrganization": {
                    "reference": "urn:uuid:01925246-3c6c-733f-826b-3aaf71a39959"
                }
            },
            "request": {
                "method": "POST",
                "url": "Location",
                "ifNoneExist": "name=Mossy Point Medical Centre"
            }
        },
        {
            "fullUrl": "urn:uuid:0192524a-fabe-7ade-b61d-1c5ea9e580ba",
            "resource": {
                "resourceType": "Practitioner",
                "meta": {
                    "profile": [
                        "http://hl7.org.au/fhir/core/StructureDefinition/au-core-practitioner"
                    ]
                },
                "identifier": [
                    {
                        "type": {
                            "coding": [
                                {
                                    "system": "http://terminology.hl7.org/CodeSystem/v2-0203",
                                    "code": "NPI",
                                    "display": "National provider identifier"
                                }
                            ],
                            "text": "HPI-I"
                        },
                        "system": "http://ns.electronichealth.net.au/id/hi/hpii/1.0",
                        "value": "8003616566718832"
                    },
                    {
                        "type": {
                            "coding": [
                                {
                                    "system": "http://terminology.hl7.org.au/CodeSystem/v2-0203",
                                    "code": "PRES",
                                    "display": "Prescriber Number"
                                }
                            ]
                        },
                        "system": "http://ns.electronichealth.net.au/id/medicare-prescriber-number",
                        "value": "8017196"
                    }
                ],
                "name": [
                    {
                        "use": "official",
                        "family": "LOWE",
                        "given": [
                            "Abe"
                        ]
                    }
                ],
                "telecom": [
                    {
                        "system": "phone",
                        "value": "0270102315",
                        "use": "work"
                    },
                    {
                        "system": "email",
                        "value": "abe.lowe@mossypointmc.example.net"
                    }
                ],
                "address": [
                    {
                        "line": [
                            "158 Warrego Cl"
                        ],
                        "city": "Mossy Point",
                        "state": "NSW",
                        "postalCode": "2537"
                    }
                ],
                "gender": "male",
                "qualification": [
                    {
                        "extension": [
                            {
                                "extension": [
                                    {
                                        "url": "ahpraProfession",
                                        "valueCodeableConcept": {
                                            "text": "Medical Practitioner"
                                        }
                                    }
                                ],
                                "url": "http://hl7.org.au/fhir/StructureDefinition/ahpraprofession-details"
                            }
                        ],
                        "identifier": [
                            {
                                "type": {
                                    "coding": [
                                        {
                                            "system": "http://terminology.hl7.org.au/CodeSystem/v2-0203",
                                            "code": "AHPRA",
                                            "display": "Australian Health Practitioner Regulation Agency Registration Number"
                                        }
                                    ],
                                    "text": "Ahpra Registration Number"
                                },
                                "system": "http://hl7.org.au/id/ahpra-registration-number",
                                "value": "HAC0000000042"
                            }
                        ],
                        "code": {
                            "coding": [
                                {
                                    "system": "http://terminology.hl7.org.au/CodeSystem/v2-0360",
                                    "code": "AUAHPRAProfession",
                                    "display": "AHPRA Profession"
                                }
                            ]
                        }
                    }
                ]
            },
            "request": {
                "method": "POST",
                "url": "Practitioner",
                "ifNoneExist": "identifier=http://ns.electronichealth.net.au/id/hi/hpii/1.0|8003616566718832"
            }
        },
        {
            "fullUrl": "urn:uuid:0192524c-b47b-7245-bead-dbc6e009ea1c",
            "resource": {
                "resourceType": "PractitionerRole",
                "meta": {
                    "profile": [
                        "http://hl7.org.au/fhir/core/StructureDefinition/au-core-practitionerrole"
                    ]
                },
                "identifier": [
                    {
                        "type": {
                            "coding": [
                                {
                                    "system": "http://terminology.hl7.org.au/CodeSystem/v2-0203",
                                    "code": "UPIN"
                                }
                            ],
                            "text": "Medicare Provider Number"
                        },
                        "system": "http://ns.electronichealth.net.au/id/medicare-provider-number",
                        "value": "2448671K"
                    }
                ],
                "practitioner": {
                    "reference": "urn:uuid:0192524a-fabe-7ade-b61d-1c5ea9e580ba"
                },
                "organization": {
                    "reference": "urn:uuid:01925246-3c6c-733f-826b-3aaf71a39959"
                },
                "code": [
                    {
                        "coding": [
                            {
                                "system": "http://www.abs.gov.au/ausstats/abs@.nsf/mf/1220.0",
                                "code": "253111",
                                "display": "General Practitioner"
                            },
                            {
                                "system": "http://snomed.info/sct",
                                "code": "62247001",
                                "display": "General practitioner"
                            }
                        ]
                    }
                ],
                "specialty": [
                    {
                        "coding": [
                            {
                                "system": "http://snomed.info/sct",
                                "code": "408443003",
                                "display": "General medical practice"
                            }
                        ]
                    }
                ],
                "location": [
                    {
                        "reference": "urn:uuid:01925246-147a-7391-a9a1-7ca5d40a8e7a"
                    }
                ],
                "telecom": [
                    {
                        "system": "phone",
                        "value": "0270102315",
                        "use": "work"
                    },
                    {
                        "system": "email",
                        "value": "abe.lowe@mossypointmc.example.net",
                        "use": "work"
                    }
                ]
            },
            "request": {
                "method": "POST",
                "url": "PractitionerRole",
                "ifNoneExist": "identifier=http://ns.electronichealth.net.au/id/medicare-provider-number|2448671K"
            }
        },
        {
            "fullUrl": "urn:uuid:8a57201d-61b9-4251-9cf9-eeb82ef802f8",
            "resource": {
                "resourceType": "Task",
                "meta": {
                    "profile": [
                        "http://hl7.org.au/fhir/ereq/StructureDefinition/au-erequesting-task"
                    ],
                    "tag": [
                        {
                            "system": "http://terminology.hl7.org.au/CodeSystem/resource-tag",
                            "code": "fulfilment-task-group"
                        }
                    ]
                },
                "groupIdentifier": {
                    "type": {
                        "coding": [
                            {
                                "system": "http://terminology.hl7.org/CodeSystem/v2-0203",
                                "code": "PGN"
                            }
                        ],
                        "text": "Placer Group Number"
                    },
                    "system": "http://diagnostic-orders-are-us.com.au/ids/pgn",
                    "value": "{{BarcodeIdentifier}}"
                },
                "status": "requested",
                "businessStatus": {
                    "coding": [
                        {
                            "system": "http://sonichealthcare.com.au/CodeSystem/pathology-order-status",
                            "code": "active"
                        }
                    ]
                },
                "intent": "order",
                "priority": "routine",
                "code": {
                    "coding": [
                        {
                            "system": "http://hl7.org/fhir/CodeSystem/task-code",
                            "code": "fulfill"
                        }
                    ],
                    "text": "Fulfill the focal request"
                },
                "description": "This task represents the current progress of a single pathology order item within the Sonic workflow process.",
                "for": {
                    "reference": "urn:uuid:2643164e-4e10-45b9-8721-b7b10ea6abad",
                    "display": "BARATZ Toni"
                },
                "executionPeriod": {
                    "start": "2024-10-02T00:04:29.1245519+10:00"
                },
                "authoredOn": "2024-10-02T00:04:29.1245519+10:00",
                "lastModified": "{{DateTimeNow}}",
                "requester": {
                    "reference": "urn:uuid:0192524c-b47b-7245-bead-dbc6e009ea1c"
                },
                "performerType": [
                    {
                        "coding": [
                            {
                                "system": "http://terminology.hl7.org/CodeSystem/v2-0074",
                                "code": "LAB"
                            }
                        ],
                        "text": "Laboratory"
                    }
                ],
                "owner": {
                    "reference": "urn:uuid:0192524f-98a0-7b8f-b00c-218e781fb945",
                    "display": "Sullivan Nicolaides Pathology"
                }
            },
            "request": {
                "method": "POST",
                "url": "Task"
            }
        },
        {
            "fullUrl": "urn:uuid:807a9b45-4979-4c8a-bd26-e5fc3cd7c721",
            "resource": {
                "resourceType": "Task",
                "meta": {
                    "profile": [
                        "http://hl7.org.au/fhir/ereq/StructureDefinition/au-erequesting-task"
                    ],
                    "tag": [
                        {
                            "system": "http://terminology.hl7.org.au/CodeSystem/resource-tag",
                            "code": "fulfilment-task"
                        }
                    ]
                },
                "groupIdentifier": {
                    "type": {
                        "coding": [
                            {
                                "system": "http://terminology.hl7.org/CodeSystem/v2-0203",
                                "code": "PGN"
                            }
                        ],
                        "text": "Placer Group Number"
                    },
                    "system": "http://diagnostic-orders-are-us.com.au/ids/pgn",
                    "value": "{{BarcodeIdentifier}}"
                },
                "status": "requested",
                "businessStatus": {
                    "coding": [
                        {
                            "system": "http://sonichealthcare.com.au/CodeSystem/pathology-order-status",
                            "code": "active"
                        }
                    ]
                },
                "intent": "order",
                "priority": "routine",
                "code": {
                    "coding": [
                        {
                            "system": "http://hl7.org/fhir/CodeSystem/task-code",
                            "code": "fulfill"
                        }
                    ],
                    "text": "Fulfill the focal request"
                },
                "description": "This task represents the current progress of a single pathology order item within the Sonic workflow process.",
                "focus": {
                    "reference": "urn:uuid:421ebf88-ca9d-4434-80ef-8b4575894f33",
                    "display": "Complete blood count"
                },
                "for": {
                    "reference": "urn:uuid:2643164e-4e10-45b9-8721-b7b10ea6abad",
                    "display": "BARATZ Toni"
                },
                "executionPeriod": {
                    "start": "2024-10-02T00:04:29.1275255+10:00"
                },
                "authoredOn": "2024-10-02T00:04:29.1275255+10:00",
                "lastModified": "{{DateTimeNow}}",
                "requester": {
                    "reference": "urn:uuid:0192524c-b47b-7245-bead-dbc6e009ea1c"
                },
                "performerType": [
                    {
                        "coding": [
                            {
                                "system": "http://terminology.hl7.org/CodeSystem/v2-0074",
                                "code": "LAB"
                            }
                        ],
                        "text": "Laboratory"
                    }
                ],
                "owner": {
                    "reference": "urn:uuid:0192524f-98a0-7b8f-b00c-218e781fb945",
                    "display": "Sullivan Nicolaides Pathology"
                }
            },
            "request": {
                "method": "POST",
                "url": "Task"
            }
        },
        {
            "fullUrl": "urn:uuid:8b00cfe3-4e3d-49c1-affd-4e8efac24f90",
            "resource": {
                "resourceType": "Task",
                "meta": {
                    "profile": [
                        "http://hl7.org.au/fhir/ereq/StructureDefinition/au-erequesting-task"
                    ],
                    "tag": [
                        {
                            "system": "http://terminology.hl7.org.au/CodeSystem/resource-tag",
                            "code": "fulfilment-task"
                        }
                    ]
                },
                "groupIdentifier": {
                    "type": {
                        "coding": [
                            {
                                "system": "http://terminology.hl7.org/CodeSystem/v2-0203",
                                "code": "PGN"
                            }
                        ],
                        "text": "Placer Group Number"
                    },
                    "system": "http://diagnostic-orders-are-us.com.au/ids/pgn",
                    "value": "{{BarcodeIdentifier}}"
                },
                "status": "requested",
                "businessStatus": {
                    "coding": [
                        {
                            "system": "http://sonichealthcare.com.au/CodeSystem/pathology-order-status",
                            "code": "active"
                        }
                    ]
                },
                "intent": "order",
                "priority": "routine",
                "code": {
                    "coding": [
                        {
                            "system": "http://hl7.org/fhir/CodeSystem/task-code",
                            "code": "fulfill"
                        }
                    ],
                    "text": "Fulfill the focal request"
                },
                "description": "This task represents the current progress of a single pathology order item within the Sonic workflow process.",
                "focus": {
                    "reference": "urn:uuid:56340aeb-4e96-4ffa-bb15-b4fa42486fc4",
                    "display": "Infectious Mononucleosis test"
                },
                "for": {
                    "reference": "urn:uuid:2643164e-4e10-45b9-8721-b7b10ea6abad",
                    "display": "BARATZ Toni"
                },
                "executionPeriod": {
                    "start": "2024-10-02T00:04:29.1275605+10:00"
                },
                "authoredOn": "2024-10-02T00:04:29.1275605+10:00",
                "lastModified": "{{DateTimeNow}}",
                "requester": {
                    "reference": "urn:uuid:0192524c-b47b-7245-bead-dbc6e009ea1c"
                },
                "performerType": [
                    {
                        "coding": [
                            {
                                "system": "http://terminology.hl7.org/CodeSystem/v2-0074",
                                "code": "LAB"
                            }
                        ],
                        "text": "Laboratory"
                    }
                ],
                "owner": {
                    "reference": "urn:uuid:0192524f-98a0-7b8f-b00c-218e781fb945",
                    "display": "Sullivan Nicolaides Pathology"
                }
            },
            "request": {
                "method": "POST",
                "url": "Task"
            }
        },
        {
            "fullUrl": "urn:uuid:bced3517-7c17-4c5c-83b9-fee65c582a24",
            "resource": {
                "resourceType": "Task",
                "meta": {
                    "tag": [
                        {
                            "system": "http://terminology.hl7.org.au/CodeSystem/resource-tag",
                            "code": "fulfilment-task"
                        }
                    ],
                    "profile": [
                        "http://hl7.org.au/fhir/ereq/StructureDefinition/au-erequesting-task"
                    ]
                },
                "groupIdentifier": {
                    "type": {
                        "coding": [
                            {
                                "system": "http://terminology.hl7.org/CodeSystem/v2-0203",
                                "code": "PGN"
                            }
                        ],
                        "text": "Placer Group Number"
                    },
                    "system": "http://diagnostic-orders-are-us.com.au/ids/pgn",
                    "value": "{{BarcodeIdentifier}}"
                },
                "status": "requested",
                "businessStatus": {
                    "coding": [
                        {
                            "system": "http://sonichealthcare.com.au/CodeSystem/pathology-order-status",
                            "code": "active"
                        }
                    ]
                },
                "intent": "order",
                "priority": "routine",
                "code": {
                    "coding": [
                        {
                            "system": "http://hl7.org/fhir/CodeSystem/task-code",
                            "code": "fulfill"
                        }
                    ],
                    "text": "Fulfill the focal request"
                },
                "description": "This task represents the current progress of a single pathology order item within the Sonic workflow process.",
                "focus": {
                    "reference": "urn:uuid:1729dde7-fc68-4a30-be94-db3cf3c19ba5",
                    "display": "Liver function tests - general"
                },
                "for": {
                    "reference": "urn:uuid:2643164e-4e10-45b9-8721-b7b10ea6abad",
                    "display": "BARATZ Toni"
                },
                "executionPeriod": {
                    "start": "2024-10-02T00:04:29.1275726+10:00"
                },
                "authoredOn": "2024-10-02T00:04:29.1275726+10:00",
                "lastModified": "{{DateTimeNow}}",
                "requester": {
                    "reference": "urn:uuid:0192524c-b47b-7245-bead-dbc6e009ea1c"
                },
                "performerType": [
                    {
                        "coding": [
                            {
                                "system": "http://terminology.hl7.org/CodeSystem/v2-0074",
                                "code": "LAB"
                            }
                        ],
                        "text": "Laboratory"
                    }
                ],
                "owner": {
                    "reference": "urn:uuid:0192524f-98a0-7b8f-b00c-218e781fb945",
                    "display": "Sullivan Nicolaides Pathology"
                }
            },
            "request": {
                "method": "POST",
                "url": "Task"
            }
        }
    ]
}